ExperimentName	Subject	Session	Clock.Information	DataFile.Basename	Display.RefreshRate	ExperimentVersion	Group	RandomSeed	RuntimeCapabilities	RuntimeVersion	RuntimeVersionExpected	SessionDate	SessionStartDateTimeUtc	SessionTime	StudioVersion	Block	List1	List1.Cycle	List1.Sample	Procedure[Block]	Running[Block]	Trial	List3	List3.Cycle	List3.Sample	Procedure[Trial]	Running[Trial]	SubTrial	Amount13.ACC	Amount13.CRESP	Amount13.DurationError	Amount13.OnsetDelay	Amount13.OnsetTime	Amount13.OnsetToOnsetTime	Amount13.RESP	Amount13.RT	Amount13.RTTime	Amount14.ACC	Amount14.CRESP	Amount14.DurationError	Amount14.OnsetDelay	Amount14.OnsetTime	Amount14.OnsetToOnsetTime	Amount14.RESP	Amount14.RT	Amount14.RTTime	Amount6.ACC	Amount6.CRESP	Amount6.DurationError	Amount6.OnsetDelay	Amount6.OnsetTime	Amount6.OnsetToOnsetTime	Amount6.RESP	Amount6.RT	Amount6.RTTime	AmtL	AmtR	DelL	DelR	LeftRight	List5	List5.Cycle	List5.Sample	List8	List8.Cycle	List8.Sample	Procedure[SubTrial]	RandomNum	Running[SubTrial]
ITCvB_070219	35	1	"<?xml version=""1.0""?>\n<Clock xmlns:dt=""urn:schemas-microsoft-com:datatypes""><Description dt:dt=""string"">E-Prime Primary Realtime Clock</Description><StartTime><Timestamp dt:dt=""int"">0</Timestamp><DateUtc dt:dt=""string"">2020-01-21T22:42:47Z</DateUtc></StartTime><FrequencyChanges><FrequencyChange><Frequency dt:dt=""r8"">1757816</Frequency><Timestamp dt:dt=""r8"">5191423257131</Timestamp><Current dt:dt=""r8"">0</Current><DateUtc dt:dt=""string"">2020-01-21T22:42:47Z</DateUtc></FrequencyChange></FrequencyChanges></Clock>\n"	ITCvB_070219-35-1	60.024	1.0.0.20	1	-1191886329	Professional	2.0.10.356	2.0.10.356	1/21/2020		17:42:47	2.0.10.252	1	1	1	1	Experiment	List1	1	1	1	1	Practice	List3	1	1	j	-999999	41	137254	0	j	5858	143112																			8	25	now	121 days					1	1	1	ChoiceExp2		List8
ITCvB_070219	35	1	"<?xml version=""1.0""?>\n<Clock xmlns:dt=""urn:schemas-microsoft-com:datatypes""><Description dt:dt=""string"">E-Prime Primary Realtime Clock</Description><StartTime><Timestamp dt:dt=""int"">0</Timestamp><DateUtc dt:dt=""string"">2020-01-21T22:42:47Z</DateUtc></StartTime><FrequencyChanges><FrequencyChange><Frequency dt:dt=""r8"">1757816</Frequency><Timestamp dt:dt=""r8"">5191423257131</Timestamp><Current dt:dt=""r8"">0</Current><DateUtc dt:dt=""string"">2020-01-21T22:42:47Z</DateUtc></FrequencyChange></FrequencyChanges></Clock>\n"	ITCvB_070219-35-1	60.024	1.0.0.20	1	-1191886329	Professional	2.0.10.356	2.0.10.356	1/21/2020		17:42:47	2.0.10.252	1	1	1	1	Experiment	List1	1	1	1	1	Practice	List3	2	0	j	-999999	33	144685	0	f	5388	150073																			30	7	155 days	now					2	1	2	ChoiceExp2		List8
ITCvB_070219	35	1	"<?xml version=""1.0""?>\n<Clock xmlns:dt=""urn:schemas-microsoft-com:datatypes""><Description dt:dt=""string"">E-Prime Primary Realtime Clock</Description><StartTime><Timestamp dt:dt=""int"">0</Timestamp><DateUtc dt:dt=""string"">2020-01-21T22:42:47Z</DateUtc></StartTime><FrequencyChanges><FrequencyChange><Frequency dt:dt=""r8"">1757816</Frequency><Timestamp dt:dt=""r8"">5191423257131</Timestamp><Current dt:dt=""r8"">0</Current><DateUtc dt:dt=""string"">2020-01-21T22:42:47Z</DateUtc></FrequencyChange></FrequencyChanges></Clock>\n"	ITCvB_070219-35-1	60.024	1.0.0.20	1	-1191886329	Professional	2.0.10.356	2.0.10.356	1/21/2020		17:42:47	2.0.10.252	1	1	1	1	Experiment	List1	2	2	1	2	ChoiceExp	List3	1										0		0	0	0	0		0	0	0	j	-999999	20	159512	0	f	5377	164889	31	35	now	81	1	18	1	1				ChoiceExp1	69	List5
ITCvB_070219	35	1	"<?xml version=""1.0""?>\n<Clock xmlns:dt=""urn:schemas-microsoft-com:datatypes""><Description dt:dt=""string"">E-Prime Primary Realtime Clock</Description><StartTime><Timestamp dt:dt=""int"">0</Timestamp><DateUtc dt:dt=""string"">2020-01-21T22:42:47Z</DateUtc></StartTime><FrequencyChanges><FrequencyChange><Frequency dt:dt=""r8"">1757816</Frequency><Timestamp dt:dt=""r8"">5191423257131</Timestamp><Current dt:dt=""r8"">0</Current><DateUtc dt:dt=""string"">2020-01-21T22:42:47Z</DateUtc></FrequencyChange></FrequencyChanges></Clock>\n"	ITCvB_070219-35-1	60.024	1.0.0.20	1	-1191886329	Professional	2.0.10.356	2.0.10.356	1/21/2020		17:42:47	2.0.10.252	1	1	1	1	Experiment	List1	2	2	1	2	ChoiceExp	List3	2										0		0	0	0	0		0	0	1	j	-999999	33	166459	0	j	2717	169176	11	35	now	35	1	42	1	2				ChoiceExp1	63	List5
ITCvB_070219	35	1	"<?xml version=""1.0""?>\n<Clock xmlns:dt=""urn:schemas-microsoft-com:datatypes""><Description dt:dt=""string"">E-Prime Primary Realtime Clock</Description><StartTime><Timestamp dt:dt=""int"">0</Timestamp><DateUtc dt:dt=""string"">2020-01-21T22:42:47Z</DateUtc></StartTime><FrequencyChanges><FrequencyChange><Frequency dt:dt=""r8"">1757816</Frequency><Timestamp dt:dt=""r8"">5191423257131</Timestamp><Current dt:dt=""r8"">0</Current><DateUtc dt:dt=""string"">2020-01-21T22:42:47Z</DateUtc></FrequencyChange></FrequencyChanges></Clock>\n"	ITCvB_070219-35-1	60.024	1.0.0.20	1	-1191886329	Professional	2.0.10.356	2.0.10.356	1/21/2020		17:42:47	2.0.10.252	1	1	1	1	Experiment	List1	2	2	1	2	ChoiceExp	List3	3										0	j	-999999	33	170741	0	f	3643	174384	1	j	-999999	33	166459	0	j	2717	169176	26	35	now	22	0	33	1	3				ChoiceExp1	48	List5
ITCvB_070219	35	1	"<?xml version=""1.0""?>\n<Clock xmlns:dt=""urn:schemas-microsoft-com:datatypes""><Description dt:dt=""string"">E-Prime Primary Realtime Clock</Description><StartTime><Timestamp dt:dt=""int"">0</Timestamp><DateUtc dt:dt=""string"">2020-01-21T22:42:47Z</DateUtc></StartTime><FrequencyChanges><FrequencyChange><Frequency dt:dt=""r8"">1757816</Frequency><Timestamp dt:dt=""r8"">5191423257131</Timestamp><Current dt:dt=""r8"">0</Current><DateUtc dt:dt=""string"">2020-01-21T22:42:47Z</DateUtc></FrequencyChange></FrequencyChanges></Clock>\n"	ITCvB_070219-35-1	60.024	1.0.0.20	1	-1191886329	Professional	2.0.10.356	2.0.10.356	1/21/2020		17:42:47	2.0.10.252	1	1	1	1	Experiment	List1	2	2	1	2	ChoiceExp	List3	4										0	j	-999999	16	175939	0	f	4523	180462	1	j	-999999	33	166459	0	j	2717	169176	12	35	now	12	0	48	1	4				ChoiceExp1	24	List5
ITCvB_070219	35	1	"<?xml version=""1.0""?>\n<Clock xmlns:dt=""urn:schemas-microsoft-com:datatypes""><Description dt:dt=""string"">E-Prime Primary Realtime Clock</Description><StartTime><Timestamp dt:dt=""int"">0</Timestamp><DateUtc dt:dt=""string"">2020-01-21T22:42:47Z</DateUtc></StartTime><FrequencyChanges><FrequencyChange><Frequency dt:dt=""r8"">1757816</Frequency><Timestamp dt:dt=""r8"">5191423257131</Timestamp><Current dt:dt=""r8"">0</Current><DateUtc dt:dt=""string"">2020-01-21T22:42:47Z</DateUtc></FrequencyChange></FrequencyChanges></Clock>\n"	ITCvB_070219-35-1	60.024	1.0.0.20	1	-1191886329	Professional	2.0.10.356	2.0.10.356	1/21/2020		17:42:47	2.0.10.252	1	1	1	1	Experiment	List1	2	2	1	2	ChoiceExp	List3	5										1	j	-999999	16	182003	0	j	2918	184921	1	j	-999999	33	166459	0	j	2717	169176	24	25	now	112	0	7	1	5				ChoiceExp1	44	List5
ITCvB_070219	35	1	"<?xml version=""1.0""?>\n<Clock xmlns:dt=""urn:schemas-microsoft-com:datatypes""><Description dt:dt=""string"">E-Prime Primary Realtime Clock</Description><StartTime><Timestamp dt:dt=""int"">0</Timestamp><DateUtc dt:dt=""string"">2020-01-21T22:42:47Z</DateUtc></StartTime><FrequencyChanges><FrequencyChange><Frequency dt:dt=""r8"">1757816</Frequency><Timestamp dt:dt=""r8"">5191423257131</Timestamp><Current dt:dt=""r8"">0</Current><DateUtc dt:dt=""string"">2020-01-21T22:42:47Z</DateUtc></FrequencyChange></FrequencyChanges></Clock>\n"	ITCvB_070219-35-1	60.024	1.0.0.20	1	-1191886329	Professional	2.0.10.356	2.0.10.356	1/21/2020		17:42:47	2.0.10.252	1	1	1	1	Experiment	List1	2	2	1	2	ChoiceExp	List3	6										1	j	-999999	16	182003	0	j	2918	184921	1	j	-999999	33	186485	0	j	3412	189897	15	30	now	16	1	41	1	6				ChoiceExp1	70	List5
ITCvB_070219	35	1	"<?xml version=""1.0""?>\n<Clock xmlns:dt=""urn:schemas-microsoft-com:datatypes""><Description dt:dt=""string"">E-Prime Primary Realtime Clock</Description><StartTime><Timestamp dt:dt=""int"">0</Timestamp><DateUtc dt:dt=""string"">2020-01-21T22:42:47Z</DateUtc></StartTime><FrequencyChanges><FrequencyChange><Frequency dt:dt=""r8"">1757816</Frequency><Timestamp dt:dt=""r8"">5191423257131</Timestamp><Current dt:dt=""r8"">0</Current><DateUtc dt:dt=""string"">2020-01-21T22:42:47Z</DateUtc></FrequencyChange></FrequencyChanges></Clock>\n"	ITCvB_070219-35-1	60.024	1.0.0.20	1	-1191886329	Professional	2.0.10.356	2.0.10.356	1/21/2020		17:42:47	2.0.10.252	1	1	1	1	Experiment	List1	2	2	1	2	ChoiceExp	List3	7										1	j	-999999	16	182003	0	j	2918	184921	1	j	-999999	16	191449	0	j	2455	193904	12	25	now	11	1	43	1	7				ChoiceExp1	52	List5
ITCvB_070219	35	1	"<?xml version=""1.0""?>\n<Clock xmlns:dt=""urn:schemas-microsoft-com:datatypes""><Description dt:dt=""string"">E-Prime Primary Realtime Clock</Description><StartTime><Timestamp dt:dt=""int"">0</Timestamp><DateUtc dt:dt=""string"">2020-01-21T22:42:47Z</DateUtc></StartTime><FrequencyChanges><FrequencyChange><Frequency dt:dt=""r8"">1757816</Frequency><Timestamp dt:dt=""r8"">5191423257131</Timestamp><Current dt:dt=""r8"">0</Current><DateUtc dt:dt=""string"">2020-01-21T22:42:47Z</DateUtc></FrequencyChange></FrequencyChanges></Clock>\n"	ITCvB_070219-35-1	60.024	1.0.0.20	1	-1191886329	Professional	2.0.10.356	2.0.10.356	1/21/2020		17:42:47	2.0.10.252	1	1	1	1	Experiment	List1	2	2	1	2	ChoiceExp	List3	8										1	j	-999999	16	182003	0	j	2918	184921	1	j	-999999	17	195448	0	j	3079	198527	14	30	now	7	1	47	1	8				ChoiceExp1	73	List5
ITCvB_070219	35	1	"<?xml version=""1.0""?>\n<Clock xmlns:dt=""urn:schemas-microsoft-com:datatypes""><Description dt:dt=""string"">E-Prime Primary Realtime Clock</Description><StartTime><Timestamp dt:dt=""int"">0</Timestamp><DateUtc dt:dt=""string"">2020-01-21T22:42:47Z</DateUtc></StartTime><FrequencyChanges><FrequencyChange><Frequency dt:dt=""r8"">1757816</Frequency><Timestamp dt:dt=""r8"">5191423257131</Timestamp><Current dt:dt=""r8"">0</Current><DateUtc dt:dt=""string"">2020-01-21T22:42:47Z</DateUtc></FrequencyChange></FrequencyChanges></Clock>\n"	ITCvB_070219-35-1	60.024	1.0.0.20	1	-1191886329	Professional	2.0.10.356	2.0.10.356	1/21/2020		17:42:47	2.0.10.252	1	1	1	1	Experiment	List1	2	2	1	2	ChoiceExp	List3	9										1	j	-999999	16	182003	0	j	2918	184921	0	j	-999999	33	200096	0	f	2595	202691	29	30	now	130	1	5	1	9				ChoiceExp1	51	List5
ITCvB_070219	35	1	"<?xml version=""1.0""?>\n<Clock xmlns:dt=""urn:schemas-microsoft-com:datatypes""><Description dt:dt=""string"">E-Prime Primary Realtime Clock</Description><StartTime><Timestamp dt:dt=""int"">0</Timestamp><DateUtc dt:dt=""string"">2020-01-21T22:42:47Z</DateUtc></StartTime><FrequencyChanges><FrequencyChange><Frequency dt:dt=""r8"">1757816</Frequency><Timestamp dt:dt=""r8"">5191423257131</Timestamp><Current dt:dt=""r8"">0</Current><DateUtc dt:dt=""string"">2020-01-21T22:42:47Z</DateUtc></FrequencyChange></FrequencyChanges></Clock>\n"	ITCvB_070219-35-1	60.024	1.0.0.20	1	-1191886329	Professional	2.0.10.356	2.0.10.356	1/21/2020		17:42:47	2.0.10.252	1	1	1	1	Experiment	List1	2	2	1	2	ChoiceExp	List3	10										0	j	-999999	16	204244	0	f	2644	206888	0	j	-999999	33	200096	0	f	2595	202691	10	35	now	99	0	36	1	10				ChoiceExp1	47	List5
ITCvB_070219	35	1	"<?xml version=""1.0""?>\n<Clock xmlns:dt=""urn:schemas-microsoft-com:datatypes""><Description dt:dt=""string"">E-Prime Primary Realtime Clock</Description><StartTime><Timestamp dt:dt=""int"">0</Timestamp><DateUtc dt:dt=""string"">2020-01-21T22:42:47Z</DateUtc></StartTime><FrequencyChanges><FrequencyChange><Frequency dt:dt=""r8"">1757816</Frequency><Timestamp dt:dt=""r8"">5191423257131</Timestamp><Current dt:dt=""r8"">0</Current><DateUtc dt:dt=""string"">2020-01-21T22:42:47Z</DateUtc></FrequencyChange></FrequencyChanges></Clock>\n"	ITCvB_070219-35-1	60.024	1.0.0.20	1	-1191886329	Professional	2.0.10.356	2.0.10.356	1/21/2020		17:42:47	2.0.10.252	1	1	1	1	Experiment	List1	2	2	1	2	ChoiceExp	List3	11										0	j	-999999	16	208442	0	f	3077	211519	0	j	-999999	33	200096	0	f	2595	202691	18	25	now	98	0	22	1	11				ChoiceExp1	2	List5
ITCvB_070219	35	1	"<?xml version=""1.0""?>\n<Clock xmlns:dt=""urn:schemas-microsoft-com:datatypes""><Description dt:dt=""string"">E-Prime Primary Realtime Clock</Description><StartTime><Timestamp dt:dt=""int"">0</Timestamp><DateUtc dt:dt=""string"">2020-01-21T22:42:47Z</DateUtc></StartTime><FrequencyChanges><FrequencyChange><Frequency dt:dt=""r8"">1757816</Frequency><Timestamp dt:dt=""r8"">5191423257131</Timestamp><Current dt:dt=""r8"">0</Current><DateUtc dt:dt=""string"">2020-01-21T22:42:47Z</DateUtc></FrequencyChange></FrequencyChanges></Clock>\n"	ITCvB_070219-35-1	60.024	1.0.0.20	1	-1191886329	Professional	2.0.10.356	2.0.10.356	1/21/2020		17:42:47	2.0.10.252	1	1	1	1	Experiment	List1	2	2	1	2	ChoiceExp	List3	12										0	j	-999999	16	208442	0	f	3077	211519	0	j	-999999	16	213074	0	f	2941	216015	34	35	now	47	1	12	1	12				ChoiceExp1	52	List5
ITCvB_070219	35	1	"<?xml version=""1.0""?>\n<Clock xmlns:dt=""urn:schemas-microsoft-com:datatypes""><Description dt:dt=""string"">E-Prime Primary Realtime Clock</Description><StartTime><Timestamp dt:dt=""int"">0</Timestamp><DateUtc dt:dt=""string"">2020-01-21T22:42:47Z</DateUtc></StartTime><FrequencyChanges><FrequencyChange><Frequency dt:dt=""r8"">1757816</Frequency><Timestamp dt:dt=""r8"">5191423257131</Timestamp><Current dt:dt=""r8"">0</Current><DateUtc dt:dt=""string"">2020-01-21T22:42:47Z</DateUtc></FrequencyChange></FrequencyChanges></Clock>\n"	ITCvB_070219-35-1	60.024	1.0.0.20	1	-1191886329	Professional	2.0.10.356	2.0.10.356	1/21/2020		17:42:47	2.0.10.252	1	1	1	1	Experiment	List1	2	2	1	2	ChoiceExp	List3	13										0	j	-999999	16	208442	0	f	3077	211519	1	j	-999999	16	217555	0	j	3039	220594	25	30	now	8	1	35	1	13				ChoiceExp1	66	List5
ITCvB_070219	35	1	"<?xml version=""1.0""?>\n<Clock xmlns:dt=""urn:schemas-microsoft-com:datatypes""><Description dt:dt=""string"">E-Prime Primary Realtime Clock</Description><StartTime><Timestamp dt:dt=""int"">0</Timestamp><DateUtc dt:dt=""string"">2020-01-21T22:42:47Z</DateUtc></StartTime><FrequencyChanges><FrequencyChange><Frequency dt:dt=""r8"">1757816</Frequency><Timestamp dt:dt=""r8"">5191423257131</Timestamp><Current dt:dt=""r8"">0</Current><DateUtc dt:dt=""string"">2020-01-21T22:42:47Z</DateUtc></FrequencyChange></FrequencyChanges></Clock>\n"	ITCvB_070219-35-1	60.024	1.0.0.20	1	-1191886329	Professional	2.0.10.356	2.0.10.356	1/21/2020		17:42:47	2.0.10.252	1	1	1	1	Experiment	List1	2	2	1	2	ChoiceExp	List3	14										1	j	-999999	16	222137	0	j	3152	225289	1	j	-999999	16	217555	0	j	3039	220594	33	35	now	61	0	15	1	14				ChoiceExp1	22	List5
ITCvB_070219	35	1	"<?xml version=""1.0""?>\n<Clock xmlns:dt=""urn:schemas-microsoft-com:datatypes""><Description dt:dt=""string"">E-Prime Primary Realtime Clock</Description><StartTime><Timestamp dt:dt=""int"">0</Timestamp><DateUtc dt:dt=""string"">2020-01-21T22:42:47Z</DateUtc></StartTime><FrequencyChanges><FrequencyChange><Frequency dt:dt=""r8"">1757816</Frequency><Timestamp dt:dt=""r8"">5191423257131</Timestamp><Current dt:dt=""r8"">0</Current><DateUtc dt:dt=""string"">2020-01-21T22:42:47Z</DateUtc></FrequencyChange></FrequencyChanges></Clock>\n"	ITCvB_070219-35-1	60.024	1.0.0.20	1	-1191886329	Professional	2.0.10.356	2.0.10.356	1/21/2020		17:42:47	2.0.10.252	1	1	1	1	Experiment	List1	2	2	1	2	ChoiceExp	List3	15										1	j	-999999	16	222137	0	j	3152	225289	1	j	-999999	33	226852	0	j	2196	229048	18	30	now	106	1	26	1	15				ChoiceExp1	58	List5
ITCvB_070219	35	1	"<?xml version=""1.0""?>\n<Clock xmlns:dt=""urn:schemas-microsoft-com:datatypes""><Description dt:dt=""string"">E-Prime Primary Realtime Clock</Description><StartTime><Timestamp dt:dt=""int"">0</Timestamp><DateUtc dt:dt=""string"">2020-01-21T22:42:47Z</DateUtc></StartTime><FrequencyChanges><FrequencyChange><Frequency dt:dt=""r8"">1757816</Frequency><Timestamp dt:dt=""r8"">5191423257131</Timestamp><Current dt:dt=""r8"">0</Current><DateUtc dt:dt=""string"">2020-01-21T22:42:47Z</DateUtc></FrequencyChange></FrequencyChanges></Clock>\n"	ITCvB_070219-35-1	60.024	1.0.0.20	1	-1191886329	Professional	2.0.10.356	2.0.10.356	1/21/2020		17:42:47	2.0.10.252	1	1	1	1	Experiment	List1	2	2	1	2	ChoiceExp	List3	16										1	j	-999999	16	222137	0	j	3152	225289	1	j	-999999	16	230600	0	j	2677	233277	11	30	now	109	1	32	1	16				ChoiceExp1	73	List5
ITCvB_070219	35	1	"<?xml version=""1.0""?>\n<Clock xmlns:dt=""urn:schemas-microsoft-com:datatypes""><Description dt:dt=""string"">E-Prime Primary Realtime Clock</Description><StartTime><Timestamp dt:dt=""int"">0</Timestamp><DateUtc dt:dt=""string"">2020-01-21T22:42:47Z</DateUtc></StartTime><FrequencyChanges><FrequencyChange><Frequency dt:dt=""r8"">1757816</Frequency><Timestamp dt:dt=""r8"">5191423257131</Timestamp><Current dt:dt=""r8"">0</Current><DateUtc dt:dt=""string"">2020-01-21T22:42:47Z</DateUtc></FrequencyChange></FrequencyChanges></Clock>\n"	ITCvB_070219-35-1	60.024	1.0.0.20	1	-1191886329	Professional	2.0.10.356	2.0.10.356	1/21/2020		17:42:47	2.0.10.252	1	1	1	1	Experiment	List1	2	2	1	2	ChoiceExp	List3	17										0	j	-999999	17	234832	0	f	1946	236778	1	j	-999999	16	230600	0	j	2677	233277	15	30	now	4	0	50	1	17				ChoiceExp1	33	List5
ITCvB_070219	35	1	"<?xml version=""1.0""?>\n<Clock xmlns:dt=""urn:schemas-microsoft-com:datatypes""><Description dt:dt=""string"">E-Prime Primary Realtime Clock</Description><StartTime><Timestamp dt:dt=""int"">0</Timestamp><DateUtc dt:dt=""string"">2020-01-21T22:42:47Z</DateUtc></StartTime><FrequencyChanges><FrequencyChange><Frequency dt:dt=""r8"">1757816</Frequency><Timestamp dt:dt=""r8"">5191423257131</Timestamp><Current dt:dt=""r8"">0</Current><DateUtc dt:dt=""string"">2020-01-21T22:42:47Z</DateUtc></FrequencyChange></FrequencyChanges></Clock>\n"	ITCvB_070219-35-1	60.024	1.0.0.20	1	-1191886329	Professional	2.0.10.356	2.0.10.356	1/21/2020		17:42:47	2.0.10.252	1	1	1	1	Experiment	List1	2	2	1	2	ChoiceExp	List3	18										0	j	-999999	33	238347	0	f	3503	241850	1	j	-999999	16	230600	0	j	2677	233277	20	25	now	158	0	16	1	18				ChoiceExp1	13	List5
ITCvB_070219	35	1	"<?xml version=""1.0""?>\n<Clock xmlns:dt=""urn:schemas-microsoft-com:datatypes""><Description dt:dt=""string"">E-Prime Primary Realtime Clock</Description><StartTime><Timestamp dt:dt=""int"">0</Timestamp><DateUtc dt:dt=""string"">2020-01-21T22:42:47Z</DateUtc></StartTime><FrequencyChanges><FrequencyChange><Frequency dt:dt=""r8"">1757816</Frequency><Timestamp dt:dt=""r8"">5191423257131</Timestamp><Current dt:dt=""r8"">0</Current><DateUtc dt:dt=""string"">2020-01-21T22:42:47Z</DateUtc></FrequencyChange></FrequencyChanges></Clock>\n"	ITCvB_070219-35-1	60.024	1.0.0.20	1	-1191886329	Professional	2.0.10.356	2.0.10.356	1/21/2020		17:42:47	2.0.10.252	1	1	1	1	Experiment	List1	2	2	1	2	ChoiceExp	List3	19										0	j	-999999	33	238347	0	f	3503	241850	1	j	-999999	16	243395	0	j	3117	246512	21	25	now	30	1	25	1	19				ChoiceExp1	96	List5
ITCvB_070219	35	1	"<?xml version=""1.0""?>\n<Clock xmlns:dt=""urn:schemas-microsoft-com:datatypes""><Description dt:dt=""string"">E-Prime Primary Realtime Clock</Description><StartTime><Timestamp dt:dt=""int"">0</Timestamp><DateUtc dt:dt=""string"">2020-01-21T22:42:47Z</DateUtc></StartTime><FrequencyChanges><FrequencyChange><Frequency dt:dt=""r8"">1757816</Frequency><Timestamp dt:dt=""r8"">5191423257131</Timestamp><Current dt:dt=""r8"">0</Current><DateUtc dt:dt=""string"">2020-01-21T22:42:47Z</DateUtc></FrequencyChange></FrequencyChanges></Clock>\n"	ITCvB_070219-35-1	60.024	1.0.0.20	1	-1191886329	Professional	2.0.10.356	2.0.10.356	1/21/2020		17:42:47	2.0.10.252	1	1	1	1	Experiment	List1	2	2	1	2	ChoiceExp	List3	20										0	j	-999999	16	248060	0	f	3248	251308	1	j	-999999	16	243395	0	j	3117	246512	22	30	now	9	0	38	1	20				ChoiceExp1	40	List5
ITCvB_070219	35	1	"<?xml version=""1.0""?>\n<Clock xmlns:dt=""urn:schemas-microsoft-com:datatypes""><Description dt:dt=""string"">E-Prime Primary Realtime Clock</Description><StartTime><Timestamp dt:dt=""int"">0</Timestamp><DateUtc dt:dt=""string"">2020-01-21T22:42:47Z</DateUtc></StartTime><FrequencyChanges><FrequencyChange><Frequency dt:dt=""r8"">1757816</Frequency><Timestamp dt:dt=""r8"">5191423257131</Timestamp><Current dt:dt=""r8"">0</Current><DateUtc dt:dt=""string"">2020-01-21T22:42:47Z</DateUtc></FrequencyChange></FrequencyChanges></Clock>\n"	ITCvB_070219-35-1	60.024	1.0.0.20	1	-1191886329	Professional	2.0.10.356	2.0.10.356	1/21/2020		17:42:47	2.0.10.252	1	1	1	1	Experiment	List1	2	2	1	2	ChoiceExp	List3	21										0	j	-999999	16	248060	0	f	3248	251308	1	j	-999999	16	252858	0	j	3740	256598	20	25	now	1	1	49	1	21				ChoiceExp1	84	List5
ITCvB_070219	35	1	"<?xml version=""1.0""?>\n<Clock xmlns:dt=""urn:schemas-microsoft-com:datatypes""><Description dt:dt=""string"">E-Prime Primary Realtime Clock</Description><StartTime><Timestamp dt:dt=""int"">0</Timestamp><DateUtc dt:dt=""string"">2020-01-21T22:42:47Z</DateUtc></StartTime><FrequencyChanges><FrequencyChange><Frequency dt:dt=""r8"">1757816</Frequency><Timestamp dt:dt=""r8"">5191423257131</Timestamp><Current dt:dt=""r8"">0</Current><DateUtc dt:dt=""string"">2020-01-21T22:42:47Z</DateUtc></FrequencyChange></FrequencyChanges></Clock>\n"	ITCvB_070219-35-1	60.024	1.0.0.20	1	-1191886329	Professional	2.0.10.356	2.0.10.356	1/21/2020		17:42:47	2.0.10.252	1	1	1	1	Experiment	List1	2	2	1	2	ChoiceExp	List3	22										0	j	-999999	16	248060	0	f	3248	251308	1	j	-999999	16	258139	0	j	2309	260448	21	25	now	76	1	19	1	22				ChoiceExp1	86	List5
ITCvB_070219	35	1	"<?xml version=""1.0""?>\n<Clock xmlns:dt=""urn:schemas-microsoft-com:datatypes""><Description dt:dt=""string"">E-Prime Primary Realtime Clock</Description><StartTime><Timestamp dt:dt=""int"">0</Timestamp><DateUtc dt:dt=""string"">2020-01-21T22:42:47Z</DateUtc></StartTime><FrequencyChanges><FrequencyChange><Frequency dt:dt=""r8"">1757816</Frequency><Timestamp dt:dt=""r8"">5191423257131</Timestamp><Current dt:dt=""r8"">0</Current><DateUtc dt:dt=""string"">2020-01-21T22:42:47Z</DateUtc></FrequencyChange></FrequencyChanges></Clock>\n"	ITCvB_070219-35-1	60.024	1.0.0.20	1	-1191886329	Professional	2.0.10.356	2.0.10.356	1/21/2020		17:42:47	2.0.10.252	1	1	1	1	Experiment	List1	2	2	1	2	ChoiceExp	List3	23										1	j	-999999	33	262021	0	j	2028	264049	1	j	-999999	16	258139	0	j	2309	260448	33	35	now	152	0	9	1	23				ChoiceExp1	49	List5
ITCvB_070219	35	1	"<?xml version=""1.0""?>\n<Clock xmlns:dt=""urn:schemas-microsoft-com:datatypes""><Description dt:dt=""string"">E-Prime Primary Realtime Clock</Description><StartTime><Timestamp dt:dt=""int"">0</Timestamp><DateUtc dt:dt=""string"">2020-01-21T22:42:47Z</DateUtc></StartTime><FrequencyChanges><FrequencyChange><Frequency dt:dt=""r8"">1757816</Frequency><Timestamp dt:dt=""r8"">5191423257131</Timestamp><Current dt:dt=""r8"">0</Current><DateUtc dt:dt=""string"">2020-01-21T22:42:47Z</DateUtc></FrequencyChange></FrequencyChanges></Clock>\n"	ITCvB_070219-35-1	60.024	1.0.0.20	1	-1191886329	Professional	2.0.10.356	2.0.10.356	1/21/2020		17:42:47	2.0.10.252	1	1	1	1	Experiment	List1	2	2	1	2	ChoiceExp	List3	24										1	j	-999999	33	262021	0	j	2028	264049	1	j	-999999	16	265603	0	j	1926	267529	14	35	now	6	1	51	1	24				ChoiceExp1	68	List5
ITCvB_070219	35	1	"<?xml version=""1.0""?>\n<Clock xmlns:dt=""urn:schemas-microsoft-com:datatypes""><Description dt:dt=""string"">E-Prime Primary Realtime Clock</Description><StartTime><Timestamp dt:dt=""int"">0</Timestamp><DateUtc dt:dt=""string"">2020-01-21T22:42:47Z</DateUtc></StartTime><FrequencyChanges><FrequencyChange><Frequency dt:dt=""r8"">1757816</Frequency><Timestamp dt:dt=""r8"">5191423257131</Timestamp><Current dt:dt=""r8"">0</Current><DateUtc dt:dt=""string"">2020-01-21T22:42:47Z</DateUtc></FrequencyChange></FrequencyChanges></Clock>\n"	ITCvB_070219-35-1	60.024	1.0.0.20	1	-1191886329	Professional	2.0.10.356	2.0.10.356	1/21/2020		17:42:47	2.0.10.252	1	1	1	1	Experiment	List1	2	2	1	2	ChoiceExp	List3	25										0	j	-999999	17	269085	0	f	1332	270417	1	j	-999999	16	265603	0	j	1926	267529	16	25	now	14	0	37	1	25				ChoiceExp1	33	List5
ITCvB_070219	35	1	"<?xml version=""1.0""?>\n<Clock xmlns:dt=""urn:schemas-microsoft-com:datatypes""><Description dt:dt=""string"">E-Prime Primary Realtime Clock</Description><StartTime><Timestamp dt:dt=""int"">0</Timestamp><DateUtc dt:dt=""string"">2020-01-21T22:42:47Z</DateUtc></StartTime><FrequencyChanges><FrequencyChange><Frequency dt:dt=""r8"">1757816</Frequency><Timestamp dt:dt=""r8"">5191423257131</Timestamp><Current dt:dt=""r8"">0</Current><DateUtc dt:dt=""string"">2020-01-21T22:42:47Z</DateUtc></FrequencyChange></FrequencyChanges></Clock>\n"	ITCvB_070219-35-1	60.024	1.0.0.20	1	-1191886329	Professional	2.0.10.356	2.0.10.356	1/21/2020		17:42:47	2.0.10.252	1	1	1	1	Experiment	List1	2	2	1	2	ChoiceExp	List3	26										0	j	-999999	17	269085	0	f	1332	270417	1	j	-999999	16	271967	0	j	1772	273739	30	35	now	41	1	24	1	26				ChoiceExp1	85	List5
ITCvB_070219	35	1	"<?xml version=""1.0""?>\n<Clock xmlns:dt=""urn:schemas-microsoft-com:datatypes""><Description dt:dt=""string"">E-Prime Primary Realtime Clock</Description><StartTime><Timestamp dt:dt=""int"">0</Timestamp><DateUtc dt:dt=""string"">2020-01-21T22:42:47Z</DateUtc></StartTime><FrequencyChanges><FrequencyChange><Frequency dt:dt=""r8"">1757816</Frequency><Timestamp dt:dt=""r8"">5191423257131</Timestamp><Current dt:dt=""r8"">0</Current><DateUtc dt:dt=""string"">2020-01-21T22:42:47Z</DateUtc></FrequencyChange></FrequencyChanges></Clock>\n"	ITCvB_070219-35-1	60.024	1.0.0.20	1	-1191886329	Professional	2.0.10.356	2.0.10.356	1/21/2020		17:42:47	2.0.10.252	1	1	1	1	Experiment	List1	2	2	1	2	ChoiceExp	List3	27										0	j	-999999	17	269085	0	f	1332	270417	1	j	-999999	16	275282	0	j	3648	278930	19	25	now	5	1	40	1	27				ChoiceExp1	81	List5
ITCvB_070219	35	1	"<?xml version=""1.0""?>\n<Clock xmlns:dt=""urn:schemas-microsoft-com:datatypes""><Description dt:dt=""string"">E-Prime Primary Realtime Clock</Description><StartTime><Timestamp dt:dt=""int"">0</Timestamp><DateUtc dt:dt=""string"">2020-01-21T22:42:47Z</DateUtc></StartTime><FrequencyChanges><FrequencyChange><Frequency dt:dt=""r8"">1757816</Frequency><Timestamp dt:dt=""r8"">5191423257131</Timestamp><Current dt:dt=""r8"">0</Current><DateUtc dt:dt=""string"">2020-01-21T22:42:47Z</DateUtc></FrequencyChange></FrequencyChanges></Clock>\n"	ITCvB_070219-35-1	60.024	1.0.0.20	1	-1191886329	Professional	2.0.10.356	2.0.10.356	1/21/2020		17:42:47	2.0.10.252	1	1	1	1	Experiment	List1	2	2	1	2	ChoiceExp	List3	28										0	j	-999999	17	269085	0	f	1332	270417	0	j	-999999	16	280480	0	f	2313	282793	24	25	now	173	1	4	1	28				ChoiceExp1	54	List5
ITCvB_070219	35	1	"<?xml version=""1.0""?>\n<Clock xmlns:dt=""urn:schemas-microsoft-com:datatypes""><Description dt:dt=""string"">E-Prime Primary Realtime Clock</Description><StartTime><Timestamp dt:dt=""int"">0</Timestamp><DateUtc dt:dt=""string"">2020-01-21T22:42:47Z</DateUtc></StartTime><FrequencyChanges><FrequencyChange><Frequency dt:dt=""r8"">1757816</Frequency><Timestamp dt:dt=""r8"">5191423257131</Timestamp><Current dt:dt=""r8"">0</Current><DateUtc dt:dt=""string"">2020-01-21T22:42:47Z</DateUtc></FrequencyChange></FrequencyChanges></Clock>\n"	ITCvB_070219-35-1	60.024	1.0.0.20	1	-1191886329	Professional	2.0.10.356	2.0.10.356	1/21/2020		17:42:47	2.0.10.252	1	1	1	1	Experiment	List1	2	2	1	2	ChoiceExp	List3	29										0	j	-999999	33	284362	0	f	2667	287029	0	j	-999999	16	280480	0	f	2313	282793	25	35	now	159	0	21	1	29				ChoiceExp1	32	List5
ITCvB_070219	35	1	"<?xml version=""1.0""?>\n<Clock xmlns:dt=""urn:schemas-microsoft-com:datatypes""><Description dt:dt=""string"">E-Prime Primary Realtime Clock</Description><StartTime><Timestamp dt:dt=""int"">0</Timestamp><DateUtc dt:dt=""string"">2020-01-21T22:42:47Z</DateUtc></StartTime><FrequencyChanges><FrequencyChange><Frequency dt:dt=""r8"">1757816</Frequency><Timestamp dt:dt=""r8"">5191423257131</Timestamp><Current dt:dt=""r8"">0</Current><DateUtc dt:dt=""string"">2020-01-21T22:42:47Z</DateUtc></FrequencyChange></FrequencyChanges></Clock>\n"	ITCvB_070219-35-1	60.024	1.0.0.20	1	-1191886329	Professional	2.0.10.356	2.0.10.356	1/21/2020		17:42:47	2.0.10.252	1	1	1	1	Experiment	List1	2	2	1	2	ChoiceExp	List3	30										0	j	-999999	33	288594	0	f	3476	292070	0	j	-999999	16	280480	0	f	2313	282793	26	30	now	15	0	29	1	30				ChoiceExp1	34	List5
ITCvB_070219	35	1	"<?xml version=""1.0""?>\n<Clock xmlns:dt=""urn:schemas-microsoft-com:datatypes""><Description dt:dt=""string"">E-Prime Primary Realtime Clock</Description><StartTime><Timestamp dt:dt=""int"">0</Timestamp><DateUtc dt:dt=""string"">2020-01-21T22:42:47Z</DateUtc></StartTime><FrequencyChanges><FrequencyChange><Frequency dt:dt=""r8"">1757816</Frequency><Timestamp dt:dt=""r8"">5191423257131</Timestamp><Current dt:dt=""r8"">0</Current><DateUtc dt:dt=""string"">2020-01-21T22:42:47Z</DateUtc></FrequencyChange></FrequencyChanges></Clock>\n"	ITCvB_070219-35-1	60.024	1.0.0.20	1	-1191886329	Professional	2.0.10.356	2.0.10.356	1/21/2020		17:42:47	2.0.10.252	1	1	1	1	Experiment	List1	2	2	1	2	ChoiceExp	List3	31										1	j	-999999	16	293625	0	j	3943	297568	0	j	-999999	16	280480	0	f	2313	282793	27	30	now	44	0	20	1	31				ChoiceExp1	47	List5
ITCvB_070219	35	1	"<?xml version=""1.0""?>\n<Clock xmlns:dt=""urn:schemas-microsoft-com:datatypes""><Description dt:dt=""string"">E-Prime Primary Realtime Clock</Description><StartTime><Timestamp dt:dt=""int"">0</Timestamp><DateUtc dt:dt=""string"">2020-01-21T22:42:47Z</DateUtc></StartTime><FrequencyChanges><FrequencyChange><Frequency dt:dt=""r8"">1757816</Frequency><Timestamp dt:dt=""r8"">5191423257131</Timestamp><Current dt:dt=""r8"">0</Current><DateUtc dt:dt=""string"">2020-01-21T22:42:47Z</DateUtc></FrequencyChange></FrequencyChanges></Clock>\n"	ITCvB_070219-35-1	60.024	1.0.0.20	1	-1191886329	Professional	2.0.10.356	2.0.10.356	1/21/2020		17:42:47	2.0.10.252	1	1	1	1	Experiment	List1	2	2	1	2	ChoiceExp	List3	32										1	j	-999999	17	299123	0	j	2909	302032	0	j	-999999	16	280480	0	f	2313	282793	28	30	now	113	0	11	1	32				ChoiceExp1	24	List5
ITCvB_070219	35	1	"<?xml version=""1.0""?>\n<Clock xmlns:dt=""urn:schemas-microsoft-com:datatypes""><Description dt:dt=""string"">E-Prime Primary Realtime Clock</Description><StartTime><Timestamp dt:dt=""int"">0</Timestamp><DateUtc dt:dt=""string"">2020-01-21T22:42:47Z</DateUtc></StartTime><FrequencyChanges><FrequencyChange><Frequency dt:dt=""r8"">1757816</Frequency><Timestamp dt:dt=""r8"">5191423257131</Timestamp><Current dt:dt=""r8"">0</Current><DateUtc dt:dt=""string"">2020-01-21T22:42:47Z</DateUtc></FrequencyChange></FrequencyChanges></Clock>\n"	ITCvB_070219-35-1	60.024	1.0.0.20	1	-1191886329	Professional	2.0.10.356	2.0.10.356	1/21/2020		17:42:47	2.0.10.252	1	1	1	1	Experiment	List1	2	2	1	2	ChoiceExp	List3	33										1	j	-999999	17	299123	0	j	2909	302032	0	j	-999999	17	303588	0	f	4087	307675	29	30	now	170	1	2	1	33				ChoiceExp1	76	List5
ITCvB_070219	35	1	"<?xml version=""1.0""?>\n<Clock xmlns:dt=""urn:schemas-microsoft-com:datatypes""><Description dt:dt=""string"">E-Prime Primary Realtime Clock</Description><StartTime><Timestamp dt:dt=""int"">0</Timestamp><DateUtc dt:dt=""string"">2020-01-21T22:42:47Z</DateUtc></StartTime><FrequencyChanges><FrequencyChange><Frequency dt:dt=""r8"">1757816</Frequency><Timestamp dt:dt=""r8"">5191423257131</Timestamp><Current dt:dt=""r8"">0</Current><DateUtc dt:dt=""string"">2020-01-21T22:42:47Z</DateUtc></FrequencyChange></FrequencyChanges></Clock>\n"	ITCvB_070219-35-1	60.024	1.0.0.20	1	-1191886329	Professional	2.0.10.356	2.0.10.356	1/21/2020		17:42:47	2.0.10.252	1	1	1	1	Experiment	List1	2	2	1	2	ChoiceExp	List3	34										0	j	-999999	33	309235	0	f	3821	313056	0	j	-999999	17	303588	0	f	4087	307675	13	25	now	58	0	31	1	34				ChoiceExp1	33	List5
ITCvB_070219	35	1	"<?xml version=""1.0""?>\n<Clock xmlns:dt=""urn:schemas-microsoft-com:datatypes""><Description dt:dt=""string"">E-Prime Primary Realtime Clock</Description><StartTime><Timestamp dt:dt=""int"">0</Timestamp><DateUtc dt:dt=""string"">2020-01-21T22:42:47Z</DateUtc></StartTime><FrequencyChanges><FrequencyChange><Frequency dt:dt=""r8"">1757816</Frequency><Timestamp dt:dt=""r8"">5191423257131</Timestamp><Current dt:dt=""r8"">0</Current><DateUtc dt:dt=""string"">2020-01-21T22:42:47Z</DateUtc></FrequencyChange></FrequencyChanges></Clock>\n"	ITCvB_070219-35-1	60.024	1.0.0.20	1	-1191886329	Professional	2.0.10.356	2.0.10.356	1/21/2020		17:42:47	2.0.10.252	1	1	1	1	Experiment	List1	2	2	1	2	ChoiceExp	List3	35										0	j	-999999	32	314616	0	f	2808	317424	0	j	-999999	17	303588	0	f	4087	307675	10	35	now	25	0	45	1	35				ChoiceExp1	35	List5
ITCvB_070219	35	1	"<?xml version=""1.0""?>\n<Clock xmlns:dt=""urn:schemas-microsoft-com:datatypes""><Description dt:dt=""string"">E-Prime Primary Realtime Clock</Description><StartTime><Timestamp dt:dt=""int"">0</Timestamp><DateUtc dt:dt=""string"">2020-01-21T22:42:47Z</DateUtc></StartTime><FrequencyChanges><FrequencyChange><Frequency dt:dt=""r8"">1757816</Frequency><Timestamp dt:dt=""r8"">5191423257131</Timestamp><Current dt:dt=""r8"">0</Current><DateUtc dt:dt=""string"">2020-01-21T22:42:47Z</DateUtc></FrequencyChange></FrequencyChanges></Clock>\n"	ITCvB_070219-35-1	60.024	1.0.0.20	1	-1191886329	Professional	2.0.10.356	2.0.10.356	1/21/2020		17:42:47	2.0.10.252	1	1	1	1	Experiment	List1	2	2	1	2	ChoiceExp	List3	36										1	j	-999999	17	318965	0	j	1982	320947	0	j	-999999	17	303588	0	f	4087	307675	23	25	now	145	0	10	1	36				ChoiceExp1	45	List5
ITCvB_070219	35	1	"<?xml version=""1.0""?>\n<Clock xmlns:dt=""urn:schemas-microsoft-com:datatypes""><Description dt:dt=""string"">E-Prime Primary Realtime Clock</Description><StartTime><Timestamp dt:dt=""int"">0</Timestamp><DateUtc dt:dt=""string"">2020-01-21T22:42:47Z</DateUtc></StartTime><FrequencyChanges><FrequencyChange><Frequency dt:dt=""r8"">1757816</Frequency><Timestamp dt:dt=""r8"">5191423257131</Timestamp><Current dt:dt=""r8"">0</Current><DateUtc dt:dt=""string"">2020-01-21T22:42:47Z</DateUtc></FrequencyChange></FrequencyChanges></Clock>\n"	ITCvB_070219-35-1	60.024	1.0.0.20	1	-1191886329	Professional	2.0.10.356	2.0.10.356	1/21/2020		17:42:47	2.0.10.252	1	1	1	1	Experiment	List1	2	2	1	2	ChoiceExp	List3	37										1	j	-999999	17	318965	0	j	1982	320947	0	j	-999999	17	322497	0	f	4440	326937	27	30	now	111	1	14	1	37				ChoiceExp1	88	List5
ITCvB_070219	35	1	"<?xml version=""1.0""?>\n<Clock xmlns:dt=""urn:schemas-microsoft-com:datatypes""><Description dt:dt=""string"">E-Prime Primary Realtime Clock</Description><StartTime><Timestamp dt:dt=""int"">0</Timestamp><DateUtc dt:dt=""string"">2020-01-21T22:42:47Z</DateUtc></StartTime><FrequencyChanges><FrequencyChange><Frequency dt:dt=""r8"">1757816</Frequency><Timestamp dt:dt=""r8"">5191423257131</Timestamp><Current dt:dt=""r8"">0</Current><DateUtc dt:dt=""string"">2020-01-21T22:42:47Z</DateUtc></FrequencyChange></FrequencyChanges></Clock>\n"	ITCvB_070219-35-1	60.024	1.0.0.20	1	-1191886329	Professional	2.0.10.356	2.0.10.356	1/21/2020		17:42:47	2.0.10.252	1	1	1	1	Experiment	List1	2	2	1	2	ChoiceExp	List3	38										1	j	-999999	17	318965	0	j	1982	320947	0	j	-999999	17	328478	0	f	2642	331120	29	30	now	87	1	8	1	38				ChoiceExp1	94	List5
ITCvB_070219	35	1	"<?xml version=""1.0""?>\n<Clock xmlns:dt=""urn:schemas-microsoft-com:datatypes""><Description dt:dt=""string"">E-Prime Primary Realtime Clock</Description><StartTime><Timestamp dt:dt=""int"">0</Timestamp><DateUtc dt:dt=""string"">2020-01-21T22:42:47Z</DateUtc></StartTime><FrequencyChanges><FrequencyChange><Frequency dt:dt=""r8"">1757816</Frequency><Timestamp dt:dt=""r8"">5191423257131</Timestamp><Current dt:dt=""r8"">0</Current><DateUtc dt:dt=""string"">2020-01-21T22:42:47Z</DateUtc></FrequencyChange></FrequencyChanges></Clock>\n"	ITCvB_070219-35-1	60.024	1.0.0.20	1	-1191886329	Professional	2.0.10.356	2.0.10.356	1/21/2020		17:42:47	2.0.10.252	1	1	1	1	Experiment	List1	2	2	1	2	ChoiceExp	List3	39										1	j	-999999	17	318965	0	j	1982	320947	1	j	-999999	16	332676	0	j	1308	333984	20	30	now	126	1	23	1	39				ChoiceExp1	55	List5
ITCvB_070219	35	1	"<?xml version=""1.0""?>\n<Clock xmlns:dt=""urn:schemas-microsoft-com:datatypes""><Description dt:dt=""string"">E-Prime Primary Realtime Clock</Description><StartTime><Timestamp dt:dt=""int"">0</Timestamp><DateUtc dt:dt=""string"">2020-01-21T22:42:47Z</DateUtc></StartTime><FrequencyChanges><FrequencyChange><Frequency dt:dt=""r8"">1757816</Frequency><Timestamp dt:dt=""r8"">5191423257131</Timestamp><Current dt:dt=""r8"">0</Current><DateUtc dt:dt=""string"">2020-01-21T22:42:47Z</DateUtc></FrequencyChange></FrequencyChanges></Clock>\n"	ITCvB_070219-35-1	60.024	1.0.0.20	1	-1191886329	Professional	2.0.10.356	2.0.10.356	1/21/2020		17:42:47	2.0.10.252	1	1	1	1	Experiment	List1	2	2	1	2	ChoiceExp	List3	40										1	j	-999999	17	335525	0	j	3758	339283	1	j	-999999	16	332676	0	j	1308	333984	28	30	now	45	0	17	1	40				ChoiceExp1	34	List5
ITCvB_070219	35	1	"<?xml version=""1.0""?>\n<Clock xmlns:dt=""urn:schemas-microsoft-com:datatypes""><Description dt:dt=""string"">E-Prime Primary Realtime Clock</Description><StartTime><Timestamp dt:dt=""int"">0</Timestamp><DateUtc dt:dt=""string"">2020-01-21T22:42:47Z</DateUtc></StartTime><FrequencyChanges><FrequencyChange><Frequency dt:dt=""r8"">1757816</Frequency><Timestamp dt:dt=""r8"">5191423257131</Timestamp><Current dt:dt=""r8"">0</Current><DateUtc dt:dt=""string"">2020-01-21T22:42:47Z</DateUtc></FrequencyChange></FrequencyChanges></Clock>\n"	ITCvB_070219-35-1	60.024	1.0.0.20	1	-1191886329	Professional	2.0.10.356	2.0.10.356	1/21/2020		17:42:47	2.0.10.252	1	1	1	1	Experiment	List1	2	2	1	2	ChoiceExp	List3	41										0	j	-999999	17	340823	0	f	1894	342717	1	j	-999999	16	332676	0	j	1308	333984	13	25	now	37	0	34	1	41				ChoiceExp1	39	List5
ITCvB_070219	35	1	"<?xml version=""1.0""?>\n<Clock xmlns:dt=""urn:schemas-microsoft-com:datatypes""><Description dt:dt=""string"">E-Prime Primary Realtime Clock</Description><StartTime><Timestamp dt:dt=""int"">0</Timestamp><DateUtc dt:dt=""string"">2020-01-21T22:42:47Z</DateUtc></StartTime><FrequencyChanges><FrequencyChange><Frequency dt:dt=""r8"">1757816</Frequency><Timestamp dt:dt=""r8"">5191423257131</Timestamp><Current dt:dt=""r8"">0</Current><DateUtc dt:dt=""string"">2020-01-21T22:42:47Z</DateUtc></FrequencyChange></FrequencyChanges></Clock>\n"	ITCvB_070219-35-1	60.024	1.0.0.20	1	-1191886329	Professional	2.0.10.356	2.0.10.356	1/21/2020		17:42:47	2.0.10.252	1	1	1	1	Experiment	List1	2	2	1	2	ChoiceExp	List3	42										0	j	-999999	17	340823	0	f	1894	342717	1	j	-999999	16	344271	0	j	2153	346424	13	35	now	43	1	39	1	42				ChoiceExp1	91	List5
ITCvB_070219	35	1	"<?xml version=""1.0""?>\n<Clock xmlns:dt=""urn:schemas-microsoft-com:datatypes""><Description dt:dt=""string"">E-Prime Primary Realtime Clock</Description><StartTime><Timestamp dt:dt=""int"">0</Timestamp><DateUtc dt:dt=""string"">2020-01-21T22:42:47Z</DateUtc></StartTime><FrequencyChanges><FrequencyChange><Frequency dt:dt=""r8"">1757816</Frequency><Timestamp dt:dt=""r8"">5191423257131</Timestamp><Current dt:dt=""r8"">0</Current><DateUtc dt:dt=""string"">2020-01-21T22:42:47Z</DateUtc></FrequencyChange></FrequencyChanges></Clock>\n"	ITCvB_070219-35-1	60.024	1.0.0.20	1	-1191886329	Professional	2.0.10.356	2.0.10.356	1/21/2020		17:42:47	2.0.10.252	1	1	1	1	Experiment	List1	2	2	1	2	ChoiceExp	List3	43										0	j	-999999	17	340823	0	f	1894	342717	1	j	-999999	33	347986	0	j	2227	350213	19	25	now	2	1	46	1	43				ChoiceExp1	71	List5
ITCvB_070219	35	1	"<?xml version=""1.0""?>\n<Clock xmlns:dt=""urn:schemas-microsoft-com:datatypes""><Description dt:dt=""string"">E-Prime Primary Realtime Clock</Description><StartTime><Timestamp dt:dt=""int"">0</Timestamp><DateUtc dt:dt=""string"">2020-01-21T22:42:47Z</DateUtc></StartTime><FrequencyChanges><FrequencyChange><Frequency dt:dt=""r8"">1757816</Frequency><Timestamp dt:dt=""r8"">5191423257131</Timestamp><Current dt:dt=""r8"">0</Current><DateUtc dt:dt=""string"">2020-01-21T22:42:47Z</DateUtc></FrequencyChange></FrequencyChanges></Clock>\n"	ITCvB_070219-35-1	60.024	1.0.0.20	1	-1191886329	Professional	2.0.10.356	2.0.10.356	1/21/2020		17:42:47	2.0.10.252	1	1	1	1	Experiment	List1	2	2	1	2	ChoiceExp	List3	44										0	j	-999999	17	340823	0	f	1894	342717	1	j	-999999	33	351785	0	j	2078	353863	16	35	now	119	1	30	1	44				ChoiceExp1	67	List5
ITCvB_070219	35	1	"<?xml version=""1.0""?>\n<Clock xmlns:dt=""urn:schemas-microsoft-com:datatypes""><Description dt:dt=""string"">E-Prime Primary Realtime Clock</Description><StartTime><Timestamp dt:dt=""int"">0</Timestamp><DateUtc dt:dt=""string"">2020-01-21T22:42:47Z</DateUtc></StartTime><FrequencyChanges><FrequencyChange><Frequency dt:dt=""r8"">1757816</Frequency><Timestamp dt:dt=""r8"">5191423257131</Timestamp><Current dt:dt=""r8"">0</Current><DateUtc dt:dt=""string"">2020-01-21T22:42:47Z</DateUtc></FrequencyChange></FrequencyChanges></Clock>\n"	ITCvB_070219-35-1	60.024	1.0.0.20	1	-1191886329	Professional	2.0.10.356	2.0.10.356	1/21/2020		17:42:47	2.0.10.252	1	1	1	1	Experiment	List1	2	2	1	2	ChoiceExp	List3	45										1	j	-999999	17	355417	0	j	1956	357373	1	j	-999999	33	351785	0	j	2078	353863	34	35	now	110	0	6	1	45				ChoiceExp1	40	List5
ITCvB_070219	35	1	"<?xml version=""1.0""?>\n<Clock xmlns:dt=""urn:schemas-microsoft-com:datatypes""><Description dt:dt=""string"">E-Prime Primary Realtime Clock</Description><StartTime><Timestamp dt:dt=""int"">0</Timestamp><DateUtc dt:dt=""string"">2020-01-21T22:42:47Z</DateUtc></StartTime><FrequencyChanges><FrequencyChange><Frequency dt:dt=""r8"">1757816</Frequency><Timestamp dt:dt=""r8"">5191423257131</Timestamp><Current dt:dt=""r8"">0</Current><DateUtc dt:dt=""string"">2020-01-21T22:42:47Z</DateUtc></FrequencyChange></FrequencyChanges></Clock>\n"	ITCvB_070219-35-1	60.024	1.0.0.20	1	-1191886329	Professional	2.0.10.356	2.0.10.356	1/21/2020		17:42:47	2.0.10.252	1	1	1	1	Experiment	List1	2	2	1	2	ChoiceExp	List3	46										1	j	-999999	17	355417	0	j	1956	357373	1	j	-999999	16	358915	0	j	3953	362868	17	25	now	48	1	28	1	46				ChoiceExp1	97	List5
ITCvB_070219	35	1	"<?xml version=""1.0""?>\n<Clock xmlns:dt=""urn:schemas-microsoft-com:datatypes""><Description dt:dt=""string"">E-Prime Primary Realtime Clock</Description><StartTime><Timestamp dt:dt=""int"">0</Timestamp><DateUtc dt:dt=""string"">2020-01-21T22:42:47Z</DateUtc></StartTime><FrequencyChanges><FrequencyChange><Frequency dt:dt=""r8"">1757816</Frequency><Timestamp dt:dt=""r8"">5191423257131</Timestamp><Current dt:dt=""r8"">0</Current><DateUtc dt:dt=""string"">2020-01-21T22:42:47Z</DateUtc></FrequencyChange></FrequencyChanges></Clock>\n"	ITCvB_070219-35-1	60.024	1.0.0.20	1	-1191886329	Professional	2.0.10.356	2.0.10.356	1/21/2020		17:42:47	2.0.10.252	1	1	1	1	Experiment	List1	2	2	1	2	ChoiceExp	List3	47										0	j	-999999	16	364413	0	f	2066	366479	1	j	-999999	16	358915	0	j	3953	362868	17	35	now	168	0	27	1	47				ChoiceExp1	9	List5
ITCvB_070219	35	1	"<?xml version=""1.0""?>\n<Clock xmlns:dt=""urn:schemas-microsoft-com:datatypes""><Description dt:dt=""string"">E-Prime Primary Realtime Clock</Description><StartTime><Timestamp dt:dt=""int"">0</Timestamp><DateUtc dt:dt=""string"">2020-01-21T22:42:47Z</DateUtc></StartTime><FrequencyChanges><FrequencyChange><Frequency dt:dt=""r8"">1757816</Frequency><Timestamp dt:dt=""r8"">5191423257131</Timestamp><Current dt:dt=""r8"">0</Current><DateUtc dt:dt=""string"">2020-01-21T22:42:47Z</DateUtc></FrequencyChange></FrequencyChanges></Clock>\n"	ITCvB_070219-35-1	60.024	1.0.0.20	1	-1191886329	Professional	2.0.10.356	2.0.10.356	1/21/2020		17:42:47	2.0.10.252	1	1	1	1	Experiment	List1	2	2	1	2	ChoiceExp	List3	48										0	j	-999999	16	364413	0	f	2066	366479	0	j	-999999	16	368028	0	f	2720	370748	34	35	now	160	1	3	1	48				ChoiceExp1	52	List5
ITCvB_070219	35	1	"<?xml version=""1.0""?>\n<Clock xmlns:dt=""urn:schemas-microsoft-com:datatypes""><Description dt:dt=""string"">E-Prime Primary Realtime Clock</Description><StartTime><Timestamp dt:dt=""int"">0</Timestamp><DateUtc dt:dt=""string"">2020-01-21T22:42:47Z</DateUtc></StartTime><FrequencyChanges><FrequencyChange><Frequency dt:dt=""r8"">1757816</Frequency><Timestamp dt:dt=""r8"">5191423257131</Timestamp><Current dt:dt=""r8"">0</Current><DateUtc dt:dt=""string"">2020-01-21T22:42:47Z</DateUtc></FrequencyChange></FrequencyChanges></Clock>\n"	ITCvB_070219-35-1	60.024	1.0.0.20	1	-1191886329	Professional	2.0.10.356	2.0.10.356	1/21/2020		17:42:47	2.0.10.252	1	1	1	1	Experiment	List1	2	2	1	2	ChoiceExp	List3	49										0	j	-999999	16	364413	0	f	2066	366479	1	j	-999999	16	372293	0	j	1549	373842	23	30	now	3	1	44	1	49				ChoiceExp1	100	List5
ITCvB_070219	35	1	"<?xml version=""1.0""?>\n<Clock xmlns:dt=""urn:schemas-microsoft-com:datatypes""><Description dt:dt=""string"">E-Prime Primary Realtime Clock</Description><StartTime><Timestamp dt:dt=""int"">0</Timestamp><DateUtc dt:dt=""string"">2020-01-21T22:42:47Z</DateUtc></StartTime><FrequencyChanges><FrequencyChange><Frequency dt:dt=""r8"">1757816</Frequency><Timestamp dt:dt=""r8"">5191423257131</Timestamp><Current dt:dt=""r8"">0</Current><DateUtc dt:dt=""string"">2020-01-21T22:42:47Z</DateUtc></FrequencyChange></FrequencyChanges></Clock>\n"	ITCvB_070219-35-1	60.024	1.0.0.20	1	-1191886329	Professional	2.0.10.356	2.0.10.356	1/21/2020		17:42:47	2.0.10.252	1	1	1	1	Experiment	List1	2	2	1	2	ChoiceExp	List3	50										1	j	-999999	16	375392	0	j	4219	379611	1	j	-999999	16	372293	0	j	1549	373842	22	25	now	136	0	13	1	50				ChoiceExp1	49	List5
ITCvB_070219	35	1	"<?xml version=""1.0""?>\n<Clock xmlns:dt=""urn:schemas-microsoft-com:datatypes""><Description dt:dt=""string"">E-Prime Primary Realtime Clock</Description><StartTime><Timestamp dt:dt=""int"">0</Timestamp><DateUtc dt:dt=""string"">2020-01-21T22:42:47Z</DateUtc></StartTime><FrequencyChanges><FrequencyChange><Frequency dt:dt=""r8"">1757816</Frequency><Timestamp dt:dt=""r8"">5191423257131</Timestamp><Current dt:dt=""r8"">0</Current><DateUtc dt:dt=""string"">2020-01-21T22:42:47Z</DateUtc></FrequencyChange></FrequencyChanges></Clock>\n"	ITCvB_070219-35-1	60.024	1.0.0.20	1	-1191886329	Professional	2.0.10.356	2.0.10.356	1/21/2020		17:42:47	2.0.10.252	1	1	1	1	Experiment	List1	2	2	1	2	ChoiceExp	List3	51										1	j	-999999	16	375392	0	j	4219	379611	0	j	-999999	33	381173	0	f	2879	384052	24	25	now	180	1	1	1	51				ChoiceExp1	75	List5
